File: experimental data/CC/charge/C-rate_data_cell1_Charge_0.5C@0℃.csv
Consecutive Time,Voltage,Current (raw),Capacity (normalized),Standard Discharge Capacity,Battery Temperature,Ambient Temperature,Step Num,Time[s],SOC
53447.9,3.094277,48.75467,0.000651462,97.61355,-0.7602996,-0.7900637,6,0,0
53482.9,3.169162,48.76677,0.005501928,97.61355,-0.640458,-0.8137051,6,35,0.001775298
53517.9,3.213104,48.76036,0.0103524,97.61355,-0.5810233,-0.7240582,6,70,0.003550596
53552.9,3.247216,48.76503,0.0152029,97.61355,-0.5883182,-0.7993219,6,105,0.005325894
53587.9,3.275861,48.75246,0.0200532,97.61355,-0.4665444,-0.7303904,6,140,0.007101192
53622.9,3.300418,48.76184,0.024904,97.61355,-0.4100263,-0.8329475,6,175,0.00887649
53657.9,3.32208,48.76842,0.0297547,97.61355,-0.4560467,-0.8458542,6,210,0.0106518
53692.9,3.340616,48.75725,0.034605,97.61355,-0.5551937,-0.8115054,6,245,0.0124271
53727.9,3.356333,48.75169,0.0394549,97.61355,-0.3963985,-0.7130861,6,280,0.0142024
53762.9,3.367815,48.76886,0.0443056,97.61355,-0.4874671,-0.789078,6,315,0.0159777
53797.9,3.37585,48.75365,0.0491562,97.61355,-0.4311953,-0.7554505,6,350,0.01775298
53832.9,3.38083,48.76122,0.0540068,97.61355,-0.407859,-0.7698649,6,385,0.0195283
53867.9,3.383688,48.75427,0.0588575,97.61355,-0.3496262,-0.7720327,6,420,0.0213036
53902.9,3.386103,48.76196,0.0637075,97.61355,-0.3710889,-0.6726691,6,455,0.0230789
53937.9,3.387975,48.75739,0.0685582,97.61355,-0.2644152,-0.7698649,6,490,0.0248542
53972.9,3.389749,48.7533,0.0734088,97.61355,-0.3822577,-0.8348841,6,525,0.02662947
54007.9,3.39111,48.75743,0.0782588,97.61355,-0.2984894,-0.8341615,6,560,0.0284048
54042.9,3.392639,48.76482,0.0831087,97.61355,-0.2865673,-0.7995786,6,595,0.0301801
54077.9,3.395006,48.76405,0.08795954,97.61355,-0.2846093,-0.8731418,6,630,0.0319554
54112.9,3.396474,48.75618,0.09281064,97.61355,-0.2251999,-0.8514675,6,665,0.0337307
54147.9,3.398395,48.75499,0.09766137,97.61355,-0.2232294,-0.789078,6,700,0.03550596
54182.9,3.400349,48.76765,0.102512,97.61355,-0.1662808,-0.800073,6,735,0.0372813
54217.9,3.402597,48.74377,0.107362,97.61355,-0.1648109,-0.8212581,6,770,0.0390566
54252.9,3.404693,48.76031,0.112213,97.61355,-0.1443238,-0.7932079,6,805,0.0408319
54287.9,3.406965,48.76152,0.117064,97.61355,-0.1613958,-0.8480507,6,840,0.0426072
54322.9,3.409092,48.75873,0.121914,97.61355,-0.04961214,-0.789078,6,875,0.04438245
54357.9,3.411368,48.76068,0.126765,97.61355,-0.06398419,-0.8336669,6,910,0.0461577
54392.9,3.41347,48.765,0.131615,97.61355,-0.001663005,-0.7259978,6,945,0.047933
54427.9,3.415693,48.75121,0.136466,97.61355,0.01417915,-0.7101355,6,980,0.0497083
54462.9,3.417861,48.7677,0.141316,97.61355,0.01877145,-0.7584012,6,1015,0.0514836
54497.9,3.419992,48.74586,0.146167,97.61355,0.0255886,-0.7966278,6,1050,0.05325894
54532.9,3.422123,48.76463,0.151018,97.61355,0.09027036,-0.667779,6,1085,0.0550342
54567.9,3.424459,48.76135,0.155868,97.61355,0.04066888,-0.7666765,6,1120,0.0568095
54602.9,3.426183,48.76735,0.160718,97.61355,0.1464886,-0.6682481,6,1155,0.0585848
54637.9,3.428116,48.76797,0.165569,97.61355,0.1095158,-0.7883523,6,1190,0.0603601
54672.9,3.429875,48.77264,0.170419,97.61355,0.0586696,-0.8090712,6,1225,0.06213543
54707.9,3.431683,48.76602,0.175269,97.61355,0.1924463,-0.7203817,6,1260,0.0639107
54742.9,3.433377,48.76015,0.18012,97.61355,0.1306557,-0.7898293,6,1295,0.065686
54777.9,3.434952,48.76575,0.184971,97.61355,0.05306502,-0.9053145,6,1330,0.0674613
54812.9,3.436338,48.7597,0.189821,97.61355,0.1381988,-0.804935,6,1365,0.0692366
54847.9,3.43811,48.75708,0.194672,97.61355,0.17223,-0.7632915,6,1400,0.07101192
54882.9,3.439011,48.75018,0.1995223,97.61355,0.1209259,-0.8448937,6,1435,0.0727872
54917.9,3.440122,48.75508,0.204373,97.61355,0.1990045,-0.7817819,6,1470,0.0745625
54952.9,3.441377,48.76259,0.209223,97.61355,0.2432645,-0.7903046,6,1505,0.0763378
54987.9,3.442329,48.77086,0.214073,97.61355,0.2391331,-0.6509541,6,1540,0.0781131
55022.9,3.443067,48.76089,0.218924,97.61355,0.3534,-0.7177005,6,1575,0.07988841
55057.9,3.44416,48.76045,0.223774,97.61355,0.1990045,-0.7591238,6,1610,0.0816637
55092.9,3.444937,48.76628,0.228625,97.61355,0.2605262,-0.7427984,6,1645,0.083439
55127.9,3.445754,48.75832,0.233475,97.61355,0.3601866,-0.6957946,6,1680,0.0852143
55162.9,3.446386,48.75529,0.238326,97.61355,0.23063,-0.8256163,6,1715,0.0869896
55197.9,3.446967,48.74814,0.243177,97.61355,0.2721919,-0.8141837,6,1750,0.0887649
55232.9,3.447577,48.77069,0.248028,97.61355,0.2483637,-0.8682699,6,1785,0.0905402
55267.9,3.448086,48.7581,0.252878,97.61355,0.3592189,-0.7496283,6,1820,0.0923155
55302.9,3.448569,48.75681,0.257729,97.61355,0.3480584,-0.8363358,6,1855,0.0940908
55337.9,3.44921,48.75975,0.26258,97.61355,0.3611575,-0.8005548,6,1890,0.0958661
55372.9,3.449801,48.7565,0.267431,97.61355,0.3611575,-0.8321995,6,1925,0.09764139
55407.9,3.450047,48.76077,0.272282,97.61355,0.2899554,-0.8073533,6,1960,0.0994167
55442.9,3.450105,48.76259,0.277133,97.61355,0.3937359,-0.7376925,6,1995,0.101192
55477.9,3.450923,48.75636,0.281984,97.61355,0.3490262,-0.8127099,6,2030,0.102967
55512.932,3.451052,48.77046,0.286835,97.61355,0.3643516,-0.8124563,6,2065,0.104743
55547.9,3.451884,48.77318,0.291686,97.61355,0.4926961,-0.6687076,6,2100,0.106518
55582.9,3.452363,48.7706,0.296537,97.61355,0.4340999,-0.8105165,6,2135,0.108293
55617.9,3.452795,48.77397,0.301387,97.61355,0.377447,-0.7766759,6,2170,0.110068
55652.9,3.453192,48.75645,0.306238,97.61355,0.4965563,-0.7932206,6,2205,0.111844
55687.9,3.453343,48.76753,0.311088,97.61355,0.518408,-0.7486553,6,2240,0.113619
55722.9,3.453842,48.74991,0.315939,97.61355,0.5014029,-0.8110205,6,2275,0.115394
55757.9,3.454495,48.75841,0.32079,97.61355,0.5082158,-0.736222,6,2310,0.11717
55792.9,3.454706,48.77007,0.325641,97.61355,0.524503,-0.6745801,6,2345,0.118945
55827.9,3.455091,48.7468,0.330491,97.61355,0.5439476,-0.7683658,6,2380,0.12072
55862.9,3.455498,48.7589,0.335342,97.61355,0.4938691,-0.7959146,6,2415,0.122496
55897.9,3.456169,48.75578,0.340193,97.61355,0.5670045,-0.7527977,6,2450,0.124271
55932.9,3.456276,48.75801,0.345044,97.61355,0.4904609,-0.7917784,6,2485,0.126046
55967.9,3.456923,48.76495,0.349895,97.61355,0.646237,-0.7639729,6,2520,0.127821
56002.9,3.457541,48.75938,0.354746,97.61355,0.5616624,-0.7657034,6,2555,0.129597
56037.9,3.457934,48.76366,0.359598,97.61355,0.5643524,-0.7932206,6,2590,0.131372
56072.9,3.458279,48.76646,0.364449,97.61355,0.5896018,-0.7225908,6,2625,0.133147
56107.9,3.458986,48.76233,0.3693,97.61355,0.6190123,-0.7988274,6,2660,0.134923
56142.9,3.459688,48.75316,0.374151,97.61355,0.577698,-0.8780199,6,2695,0.136698
56177.9,3.45996,48.76294,0.379002,97.61355,0.5959139,-0.7464684,6,2730,0.138473
56212.9,3.460681,48.76967,0.383852,97.61355,0.566543,-0.8665456,6,2765,0.140249
56247.9,3.461105,48.75107,0.388703,97.61355,0.610763,-0.7484113,6,2800,0.142024
56282.9,3.461575,48.76326,0.393554,97.61355,0.6547289,-0.7810245,6,2835,0.143799
56317.9,3.461915,48.75471,0.398405,97.61355,0.6724424,-0.7376925,6,2870,0.145574
56352.9,3.462898,48.76031,0.403255,97.61355,0.6739088,-0.751324,6,2905,0.14735
56387.9,3.46357,48.74854,0.408106,97.61355,0.8024132,-0.6375425,6,2940,0.149125
56422.9,3.463838,48.76085,0.412957,97.61355,0.7394943,-0.7384087,6,2975,0.1509
56457.9,3.464536,48.75664,0.417808,97.61355,0.7062209,-0.8095435,6,3010,0.152676
56492.9,3.465234,48.7569,0.422658,97.61355,0.7115612,-0.7664292,6,3045,0.154451
56527.9,3.465887,48.76089,0.427509,97.61355,0.7360881,-0.7871416,6,3080,0.156226
56562.9,3.466447,48.76414,0.43236,97.61355,0.7853842,-0.6772771,6,3115,0.158002
56597.9,3.467276,48.76651,0.437211,97.61355,0.7703229,-0.7830054,6,3150,0.159777
56632.9,3.4679,48.75845,0.442062,97.61355,0.8223069,-0.6931008,6,3185,0.161552
56667.9,3.468585,48.75725,0.446912,97.61355,0.7091249,-0.8292867,6,3220,0.163327
56702.9,3.469043,48.75929,0.451763,97.61355,0.7630497,-0.7978544,6,3255,0.165103
56737.9,3.469675,48.7674,0.456614,97.61355,0.7975383,-0.6952907,6,3290,0.166878
56772.9,3.470745,48.75655,0.461464,97.61355,0.8509501,-0.7776394,6,3325,0.168653
56807.9,3.471117,48.76779,0.466315,97.61355,0.8330005,-0.712579,6,3360,0.170429
56842.9,3.471738,48.75618,0.471165,97.61355,0.7611128,-0.7922475,6,3395,0.172204
56877.9,3.472572,48.75739,0.476016,97.61355,0.7348684,-0.8185704,6,3430,0.173979
56912.9,3.473246,48.75938,0.480867,97.61355,0.8519136,-0.6709482,6,3465,0.175755
56947.9,3.474241,48.76031,0.485718,97.61355,0.91361,-0.7298739,6,3500,0.1775298
56982.9,3.474562,48.76482,0.490568,97.61355,0.8572553,-0.6882424,6,3535,0.179305
57017.9,3.475534,48.75397,0.495419,97.61355,0.8907638,-0.654624,6,3570,0.18108
57052.9,3.476563,48.75307,0.500269,97.61355,0.9085058,-0.7954106,6,3605,0.182856
57087.9,3.477435,48.75778,0.505119,97.61355,0.9167495,-0.688965,6,3640,0.184631
57122.9,3.477886,48.76161,0.50997,97.61355,0.8242403,-0.8054072,6,3675,0.186406
57157.9,3.478769,48.75792,0.514821,97.61355,0.8859279,-0.7198905,6,3710,0.188182
57192.9,3.479807,48.7702,0.519672,97.61355,0.8410151,-0.7876074,6,3745,0.189957
57227.9,3.480739,48.76659,0.524522,97.61355,0.9565668,-0.7622869,6,3780,0.191732
57262.9,3.481493,48.76428,0.529372,97.61355,0.8363902,-0.8526657,6,3815,0.193507
57297.9,3.482086,48.7653,0.534223,97.61355,0.9204071,-0.7910209,6,3850,0.195283
57332.9,3.483199,48.76161,0.539074,97.61355,0.9179719,-0.7783589,6,3885,0.197058
57367.9,3.483881,48.75481,0.543924,97.61355,0.9536613,-0.75765,6,3920,0.198833
57402.9,3.485003,48.76614,0.548775,97.61355,0.915066,-0.7435178,6,3955,0.200609
57437.9,3.485762,48.76668,0.553626,97.61355,0.9643391,-0.7167276,6,3990,0.202384
57472.9,3.486588,48.7477,0.558477,97.61355,0.9339882,-0.7698427,6,4025,0.204159
57507.9,3.487668,48.76045,0.563327,97.61355,0.8762147,-0.8504723,6,4060,0.205935
57542.9,3.488604,48.77393,0.568178,97.61355,0.8684378,-0.8129602,6,4095,0.20771
57577.9,3.489499,48.77051,0.573028,97.61355,0.8847055,-0.819293,6,4130,0.209485
57612.9,3.490582,48.77736,0.577879,97.61355,0.9539108,-0.7045354,6,4165,0.21126
57647.9,3.491505,48.74396,0.582729,97.61355,0.9941889,-0.7245304,6,4200,0.213036
57682.9,3.492648,48.75757,0.587579,97.61355,0.9242761,-0.7644832,6,4235,0.214811
57717.9,3.49347,48.76691,0.592429,97.61355,0.9301161,-0.758623,6,4270,0.216586
57752.9,3.494892,48.76851,0.59728,97.61355,0.9165,-0.8704665,6,4305,0.218362
57787.9,3.495722,48.76463,0.602131,97.61355,1.050261,-0.7060123,6,4340,0.220137
57822.9,3.497058,48.74995,0.606982,97.61355,0.9109063,-0.7325836,6,4375,0.221912
57857.9,3.497953,48.75569,0.611832,97.61355,0.8523874,-0.8743811,6,4410,0.223688
57892.9,3.499163,48.75717,0.616683,97.61355,1.024536,-0.7846947,6,4445,0.225463
57927.9,3.500111,48.75302,0.621533,97.61355,0.9638433,-0.8154008,6,4480,0.227238
57962.9,3.501163,48.75864,0.626384,97.61355,0.9235623,-0.8709325,6,4515,0.229013
57997.9,3.502237,48.7588,0.631234,97.61355,0.9565384,-0.785449,6,4550,0.230789
58032.9,3.503412,48.76112,0.636085,97.61355,0.9364233,-0.7900511,6,4585,0.232564
58067.9,3.504636,48.74565,0.640935,97.61355,1.017235,-0.7391599,6,4620,0.234339
58102.9,3.505867,48.75481,0.645785,97.61355,1.094186,-0.7525409,6,4655,0.236115
58137.9,3.507242,48.76028,0.650636,97.61355,0.9939426,-0.807851,6,4690,0.23789
58172.9,3.508373,48.77028,0.655485,97.61355,1.02476,-0.7542651,6,4725,0.239665
58207.9,3.509884,48.75934,0.660336,97.61355,1.033753,-0.7754462,6,4760,0.241441
58242.9,3.51115,48.75534,0.665186,97.61355,1.082795,-0.7262197,6,4795,0.243216
58277.9,3.512549,48.75432,0.670036,97.61355,1.11747,-0.7140686,6,4830,0.244991
58312.9,3.513776,48.75569,0.674886,97.61355,0.9864203,-0.8607165,6,4865,0.246766
58347.9,3.515167,48.76317,0.679736,97.61355,1.058755,-0.7427984,6,4900,0.248542
58382.9,3.516532,48.75623,0.684586,97.61355,1.046144,-0.7252498,6,4935,0.250317
58417.9,3.518186,48.75787,0.689437,97.61355,0.9973405,-0.7893348,6,4970,0.252092
58452.9,3.519833,48.7637,0.694287,97.61355,1.038837,-0.7552413,6,5005,0.253868
58487.9,3.521355,48.7493,0.699137,97.61355,1.014327,-0.7798359,6,5040,0.255643
58522.9,3.523072,48.75334,0.703988,97.61355,1.072584,-0.7515743,6,5075,0.257418
58557.9,3.524804,48.76646,0.708838,97.61355,1.113104,-0.7713133,6,5110,0.259194
58592.9,3.526448,48.75214,0.713688,97.61355,0.9815791,-0.8353659,6,5145,0.260969
58627.9,3.528491,48.75285,0.718539,97.61355,1.086666,-0.8431695,6,5180,0.262744
58662.9,3.530163,48.75908,0.723389,97.61355,1.0738,-0.750351,6,5215,0.264519
58697.9,3.532107,48.76375,0.728239,97.61355,1.108517,-0.7532636,6,5250,0.266295
58732.9,3.534148,48.76143,0.73309,97.61355,1.075735,-0.7484113,6,5285,0.26807
58767.9,3.536235,48.7618,0.737939,97.61355,1.094688,-0.8049033,6,5320,0.269845
58802.932,3.538157,48.74707,0.74279,97.61355,1.100242,-0.7011538,6,5355,0.271621
58837.9,3.540615,48.7601,0.74764,97.61355,1.194411,-0.6745801,6,5390,0.273396
58872.9,3.54286,48.76138,0.752491,97.61355,1.177435,-0.7717824,6,5425,0.275171
58907.9,3.5454,48.76161,0.757342,97.61355,1.148535,-0.7810561,6,5460,0.276946
58942.9,3.548001,48.74779,0.762192,97.61355,1.092971,-0.8141837,6,5495,0.278722
58977.9,3.550755,48.74805,0.767042,97.61355,1.053665,-0.8838522,6,5530,0.280497
59012.9,3.553317,48.76949,0.771893,97.61355,1.148778,-0.7506014,6,5565,0.282272
59047.9,3.556176,48.74983,0.776743,97.61355,1.143942,-0.7403548,6,5600,0.284048
59082.9,3.559197,48.7621,0.781593,97.61355,1.174029,-0.7781149,6,5635,0.285823
59117.9,3.562325,48.7674,0.786444,97.61355,1.247775,-0.6663117,6,5670,0.287598
59152.9,3.565656,48.75548,0.791294,97.61355,1.151682,-0.8081045,6,5705,0.289374
59187.9,3.569046,48.76375,0.796144,97.61355,1.274453,-0.6395231,6,5740,0.291149
59222.9,3.572698,48.76437,0.800995,97.61355,1.236387,-0.677743,6,5775,0.292924
59257.9,3.576667,48.76335,0.805845,97.61355,1.197065,-0.7700867,6,5810,0.294699
59292.9,3.580675,48.77429,0.810695,97.61355,1.175465,-0.7993314,6,5845,0.296475
59327.9,3.58486,48.75458,0.815546,97.61355,1.2024,-0.7647336,6,5880,0.29825
59362.9,3.58931,48.7484,0.820397,97.61355,1.263069,-0.6887115,6,5915,0.300025
59397.9,3.594177,48.76321,0.825246,97.61355,1.338728,-0.6806903,6,5950,0.301801
59432.9,3.599123,48.75778,0.830097,97.61355,1.33243,-0.7398794,6,5985,0.303576
59467.9,3.604541,48.76082,0.834948,97.61355,1.252648,-0.7898006,6,6020,0.305351
59502.9,3.610141,48.76624,0.839798,97.61355,1.346251,-0.703347,6,6055,0.307127
59537.9,3.615968,48.75926,0.844648,97.61355,1.340912,-0.7615706,6,6090,0.308902
59572.9,3.622261,48.76865,0.849499,97.61355,1.359352,-0.7430519,6,6125,0.310677
59607.9,3.629102,48.76344,0.854349,97.61355,1.323938,-0.8314863,6,6160,0.312452
59642.9,3.636262,48.74475,0.8592,97.61355,1.387992,-0.7444876,6,6195,0.314228
59677.9,3.643912,48.75739,0.86405,97.61355,1.339949,-0.7776394,6,6230,0.316003
59712.9,3.65001,48.04054,0.868889,97.61355,1.393327,-0.8146528,6,6265,0.317778
59747.9,3.650271,46.34856,0.873577,97.61355,1.460983,-0.8516957,6,6300,0.319554
59782.9,3.649843,44.60187,0.878093,97.61355,1.468974,-0.7235479,6,6335,0.321329
59817.9,3.650028,42.95942,0.882446,97.61355,1.413195,-0.832453,6,6370,0.323104
59852.9,3.649828,41.29477,0.886637,97.61355,1.443528,-0.7566643,6,6405,0.32488
59887.9,3.650244,39.76987,0.890668,97.61355,1.386525,-0.7459645,6,6440,0.326655
59922.9,3.650044,38.01421,0.894543,97.61355,1.399379,-0.8765428,6,6475,0.32843
59957.932,3.650357,36.77635,0.898261,97.61355,1.417577,-0.7978417,6,6510,0.330205
59992.9,3.650198,35.20206,0.901828,97.61355,1.439919,-0.7527375,6,6545,0.331981
60027.9,3.650082,33.61269,0.905245,97.61355,1.43043,-0.7245114,6,6580,0.333756
60062.9,3.649907,32.22333,0.908518,97.61355,1.472166,-0.7656528,6,6615,0.335531
60097.9,3.649896,30.7648,0.911649,97.61355,1.342392,-0.7827392,6,6650,0.337307
60132.932,3.64981,29.36056,0.914643,97.61355,1.360116,-0.772486,6,6685,0.339082
60167.9,3.64963,27.98106,0.917501,97.61355,1.338548,-0.8168081,6,6720,0.340857
60202.9,3.649946,26.84232,0.920233,97.61355,1.2427,-0.8979703,6,6755,0.342633
60237.9,3.650211,25.65877,0.92284,97.61355,1.218466,-0.9223111,6,6790,0.344408
60272.9,3.650044,24.35106,0.925327,97.61355,1.27788,-0.8173215,6,6825,0.346183
60307.9,3.649814,23.10398,0.927698,97.61355,1.242254,-0.8002346,6,6860,0.347958
60342.9,3.650085,22.27065,0.929961,97.61355,1.206077,-0.8969845,6,6895,0.349734
60377.9,3.650502,21.50028,0.932119,97.61355,1.174562,-0.8379998,6,6930,0.351509
60412.9,3.650298,20.28492,0.934177,97.61355,1.138382,-0.7610413,6,6965,0.353284
60447.932,3.650218,19.3564,0.936139,97.61355,1.157339,-0.8024216,6,7000,0.35506
60482.9,3.650082,18.46342,0.93801,97.61355,1.123336,-0.7761435,6,7035,0.356835
60517.9,3.650116,17.73005,0.939796,97.61355,1.093757,-0.8284975,6,7070,0.35861
60552.9,3.650259,16.77648,0.941499,97.61355,1.029935,-0.8245925,6,7105,0.360385
60587.9,3.649771,15.81937,0.943123,97.61355,1.146707,-0.7677889,6,7140,0.362161
60622.9,3.649814,15.29881,0.944674,97.61355,0.9782094,-0.8197083,6,7175,0.363936
60657.9,3.64988,14.57456,0.946153,97.61355,1.002014,-0.7770944,6,7210,0.365711
60692.9,3.650096,13.86506,0.947568,97.61355,1.006647,-0.7724416,6,7245,0.367487
60727.9,3.649969,13.21165,0.948919,97.61355,1.063011,-0.7460755,6,7280,0.369262
60762.9,3.650225,12.94444,0.95021,97.61355,0.915145,-0.7887484,6,7315,0.371037
60797.9,3.649544,11.79302,0.951445,97.61355,0.8878989,-0.8236417,6,7350,0.372813
60832.9,3.650114,11.65326,0.952626,97.61355,0.9209818,-0.7526867,6,7385,0.374588
60867.9,3.649591,10.81756,0.953754,97.61355,0.7563197,-0.8876844,6,7420,0.376363
60902.9,3.65003,10.69651,0.954835,97.61355,0.8010136,-0.8806127,6,7455,0.378138
60937.9,3.649857,10.10617,0.95587,97.61355,0.7296105,-0.7936389,6,7490,0.379914
60972.9,3.650577,10.13403,0.956863,97.61355,0.5758267,-0.8798932,6,7525,0.381689
61007.9,3.650166,9.33065,0.957813,97.61355,0.6907335,-0.8401837,6,7560,0.383464
61042.9,3.649609,8.865588,0.9587253,97.61355,0.6803113,-0.8430839,6,7595,0.38524
61077.932,3.649498,8.339363,0.959601,97.61355,0.5468938,-0.8258287,6,7630,0.387015
61112.9,3.650316,8.313437,0.960441,97.61355,0.6871247,-0.7531748,6,7665,0.38879
61147.9,3.650253,8.022111,0.961249,97.61355,0.646553,-0.7636561,6,7700,0.390566
61182.9,3.64936,7.130514,0.962025,97.61355,0.5821832,-0.7602363,6,7735,0.392341
61217.9,3.649289,6.914068,0.962771,97.61355,0.6171728,-0.7327008,6,7770,0.394116
61252.9,3.650128,7.178522,0.963489,97.61355,0.4161587,-0.9040245,6,7805,0.395891
61287.9,3.650105,6.642946,0.964181,97.61355,0.432462,-0.8423676,6,7840,0.397667
61322.9,3.649807,6.442906,0.964846,97.61355,0.4708811,-0.7811988,6,7875,0.399442
61357.9,3.650244,6.474103,0.965488,97.61355,0.4573047,-0.7872525,6,7910,0.401217
61392.9,3.649716,5.964904,0.966106,97.61355,0.3775419,-0.8596548,6,7945,0.402993
61427.9,3.650159,5.756142,0.966704,97.61355,0.4476327,-0.8045008,6,7980,0.404768
61462.9,3.650419,6.007012,0.967279,97.61355,0.3019903,-0.8371916,6,8015,0.406543
61497.9,3.650291,5.55448,0.967835,97.61355,0.3235607,-0.8528178,6,8050,0.408319
61532.9,3.650125,5.369576,0.968372,97.61355,0.2708033,-0.8835479,6,8085,0.410094
387741.4,3.171247,48.76454,0.0041552,97.61355,-0.7754874,-0.9487541,22,8120,0.411869
387776,3.21595,48.75615,0.009005935,97.61355,-0.630447,-0.8490079,22,8155,0.413644
387811,3.25024,48.76268,0.0138568,97.61355,-0.6033043,-0.7992078,22,8190,0.41542
387846,3.278549,48.76294,0.0187076,97.61355,-0.5680941,-0.7413372,22,8225,0.417195
387881,3.302667,48.76521,0.02355801,97.61355,-0.5616201,-0.8599685,22,8260,0.41897
387916,3.324011,48.76045,0.0284089,97.61355,-0.5060929,-0.9203902,22,8295,0.420746
387951,3.342442,48.75725,0.0332597,97.61355,-0.5057918,-0.7167783,22,8330,0.422521
387986,3.35736,48.7561,0.03811057,97.61355,-0.4956931,-0.8501744,22,8365,0.424296
388021,3.36828,48.75961,0.042962,97.61355,-0.4366706,-0.6778538,22,8400,0.426072
388056,3.374902,48.76775,0.0478125,97.61355,-0.3944372,-0.6884737,22,8435,0.427847
388091,3.379756,48.74858,0.0526639,97.61355,-0.4918558,-0.8010176,22,8470,0.429622
388126,3.382484,48.76495,0.0575146,97.61355,-0.431113,-0.8233342,22,8505,0.431397
388161.4,3.384467,48.75592,0.0623652,97.61355,-0.3502155,-0.7726191,22,8540,0.433173
388196,3.386201,48.76712,0.0672165,97.61355,-0.4212651,-0.8059334,22,8575,0.434948
388231,3.387959,48.75996,0.07206689,97.61355,-0.4159546,-0.8761435,22,8610,0.436723
388266,3.389495,48.76633,0.0769174,97.61355,-0.3592644,-0.8345418,22,8645,0.438499
388301,3.390906,48.76375,0.0817686,97.61355,-0.3751983,-0.8353754,22,8680,0.440274
388336,3.3927,48.76472,0.0866185,97.61355,-0.2943897,-0.769643,22,8715,0.442049
388371,3.394416,48.75797,0.09146932,97.61355,-0.2581169,-0.8239776,22,8750,0.443824
388406.4,3.396333,48.75557,0.0963198,97.61355,-0.2377108,-0.8337715,22,8785,0.4456
388441,3.398438,48.75165,0.101171,97.61355,-0.1736052,-0.7394357,22,8820,0.447375
388476,3.400522,48.75873,0.106022,97.61355,-0.2754564,-0.8413278,22,8855,0.44915
388511,3.402794,48.75063,0.110873,97.61355,-0.1637211,-0.7899592,22,8890,0.450926
388546,3.404989,48.7597,0.115723,97.61355,-0.1739093,-0.7850497,22,8925,0.452701
388581,3.407104,48.75717,0.120574,97.61355,-0.1410767,-0.8654869,22,8960,0.454476
388616,3.409587,48.76508,0.125425,97.61355,-0.16636,-0.7925993,22,8995,0.456252
388651,3.411443,48.74716,0.130276,97.61355,-0.1400059,-0.9097365,22,9030,0.458027
388686,3.413922,48.75241,0.135127,97.61355,-0.1181284,-0.8198667,22,9065,0.459802
388721,3.415925,48.77571,0.139978,97.61355,-0.03509769,-0.834976,22,9100,0.461577
388756,3.418077,48.74902,0.144828,97.61355,-0.06144998,-0.7355944,22,9135,0.463353
388791,3.420399,48.75578,0.149679,97.61355,-0.05654314,-0.6528556,22,9170,0.465128
388826,3.422341,48.7702,0.15453,97.61355,-0.04338124,-0.7828405,22,9205,0.466903
388861,3.424268,48.75552,0.159381,97.61355,0.02453154,-0.8508114,22,9240,0.468679
388896.4,3.426237,48.75258,0.164231,97.61355,-0.007143013,-0.8070015,22,9275,0.470454
388931,3.427845,48.76491,0.169082,97.61355,-0.04498093,-0.8222058,22,9310,0.472229
388966,3.429659,48.7601,0.173933,97.61355,0.04301395,-0.7794334,22,9345,0.474005
389001,3.431651,48.75685,0.178784,97.61355,0.108345,-0.8197305,22,9380,0.47578
389036,3.432916,48.77531,0.183634,97.61355,0.1123478,-0.8006182,22,9415,0.477555
389071,3.434348,48.75922,0.188485,97.61355,0.1067407,-0.7986848,22,9450,0.47933
389106,3.435595,48.76157,0.193335,97.61355,0.1176795,-0.7726191,22,9485,0.481106
389141,3.437315,48.7533,0.198187,97.61355,0.08635598,-0.8342058,22,9520,0.482881
389176,3.438485,48.76753,0.203037,97.61355,0.1014374,-0.8417621,22,9555,0.484656
389211,3.439405,48.76312,0.207888,97.61355,0.2137562,-0.8198667,22,9590,0.486432
389246,3.440336,48.76294,0.212739,97.61355,0.2013456,-0.794539,22,9625,0.488207
389281,3.441047,48.76036,0.217589,97.61355,0.2006085,-0.7575169,22,9660,0.489982
389316,3.442056,48.76405,0.22244,97.61355,0.2006085,-0.8254863,22,9695,0.491758
389351,3.442895,48.77411,0.227291,97.61355,0.2054836,-0.813049,22,9730,0.493533
389386,3.443448,48.76584,0.232142,97.61355,0.181367,-0.8221076,22,9765,0.495308
389421,3.444246,48.76695,0.236993,97.61355,0.2458394,-0.8179364,22,9800,0.497083
389456.4,3.444807,48.77167,0.241844,97.61355,0.2183559,-0.7925993,22,9835,0.498859
389491,3.445302,48.75227,0.246694,97.61355,0.2371339,-0.8795224,22,9870,0.500634
389526,3.44593,48.7532,0.251545,97.61355,0.3042012,-0.8123168,22,9905,0.502409
389561,3.446398,48.742,0.256396,97.61355,0.2386397,-0.8175941,22,9940,0.504185
389596,3.446879,48.74168,0.261247,97.61355,0.3328779,-0.7835791,22,9975,0.50596
389631,3.447138,48.75685,0.266097,97.61355,0.3129369,-0.7642265,22,10010,0.507735
389666,3.447451,48.75787,0.270948,97.61355,0.3185446,-0.7812336,22,10045,0.509511
389701,3.448242,48.75281,0.2757988,97.61355,0.3250123,-0.7612536,22,10080,0.511286
389736,3.448549,48.76614,0.280649,97.61355,0.3513475,-0.8330394,22,10115,0.513061
389771,3.449121,48.76282,0.2855,97.61355,0.3486878,-0.7979463,22,10150,0.514836
389806,3.449305,48.76979,0.290351,97.61355,0.3634566,-0.8058003,22,10185,0.516612
389841,3.449965,48.7588,0.295202,97.61355,0.3370147,-0.8625106,22,10220,0.518387
389876,3.450257,48.75539,0.300053,97.61355,0.3799959,-0.8345418,22,10255,0.520162
389911,3.4507,48.77242,0.304903,97.61355,0.3890274,-0.7575169,22,10290,0.521938
389946,3.451084,48.75343,0.309754,97.61355,0.4267009,-0.8330394,22,10325,0.523713
389981,3.451518,48.7653,0.314604,97.61355,0.3475208,-0.8519842,22,10360,0.525488
390016,3.451929,48.76031,0.319455,97.61355,0.4323071,-0.8123168,22,10395,0.527264
390051,3.452484,48.74342,0.324305,97.61355,0.3777633,-0.7914615,22,10430,0.529039
390086,3.452924,48.75694,0.329156,97.61355,0.5814974,-0.7458188,22,10465,0.530814
390121,3.453226,48.75388,0.334007,97.61355,0.5239055,-0.8035626,22,10500,0.532589
390156,3.453749,48.76553,0.338857,97.61355,0.5246357,-0.7650695,22,10535,0.534365
390191,3.454344,48.7545,0.343708,97.61355,0.4967113,-0.7779628,22,10570,0.53614
390226,3.454683,48.76454,0.348558,97.61355,0.4059008,-0.8161266,22,10605,0.537915
390261,3.455171,48.75908,0.353409,97.61355,0.6541791,-0.6653863,22,10640,0.539691
390296,3.455589,48.76184,0.358259,97.61355,0.6048272,-0.7903934,22,10675,0.541466
390331,3.455919,48.77167,0.36311,97.61355,0.6466478,-0.6653863,22,10710,0.543241
390366,3.456526,48.75401,0.36796,97.61355,0.623927,-0.7259312,22,10745,0.545016
390401,3.457096,48.76006,0.372811,97.61355,0.5856286,-0.802092,22,10780,0.546792
390436,3.45767,48.76344,0.377662,97.61355,0.6048272,-0.6922166,22,10815,0.548567
390471,3.458266,48.7533,0.382513,97.61355,0.587465,-0.7926977,22,10850,0.550342
390506.4,3.458727,48.76175,0.387364,97.61355,0.6800427,-0.8547101,22,10885,0.552118
390541,3.459327,48.76895,0.392214,97.61355,0.5719767,-0.8369665,22,10920,0.553893
390576,3.459987,48.76294,0.397065,97.61355,0.6265945,-0.8440887,22,10955,0.555668
390611,3.460438,48.77032,0.401916,97.61355,0.5964702,-0.7610127,22,10990,0.557444
390646,3.460933,48.76637,0.406766,97.61355,0.7197107,-0.6978356,22,11025,0.559219
390681.4,3.461496,48.76823,0.411617,97.61355,0.7237174,-0.7315789,22,11060,0.560994
390716,3.462166,48.76237,0.416467,97.61355,0.6006013,-0.8852627,22,11095,0.562769
390751,3.462882,48.77139,0.421318,97.61355,0.6378303,-0.8403739,22,11130,0.564545
390786,3.463309,48.75529,0.426169,97.61355,0.7289596,-0.7489786,22,11165,0.56632
390821,3.463888,48.7464,0.431019,97.61355,0.8129336,-0.7251579,22,11200,0.568095
390856,3.464781,48.76828,0.43587,97.61355,0.7865279,-0.7214372,22,11235,0.569871
390891,3.465403,48.75766,0.440721,97.61355,0.8294592,-0.6557205,22,11270,0.571646
390926.4,3.465954,48.75966,0.445572,97.61355,0.748964,-0.7817756,22,11305,0.573421
390961,3.466931,48.76993,0.450423,97.61355,0.6784879,-0.8675725,22,11340,0.575197
390996,3.467457,48.76877,0.455274,97.61355,0.8287199,-0.731975,22,11375,0.576972
391031,3.4683,48.76357,0.460125,97.61355,0.6957517,-0.8200442,22,11410,0.578747
391066,3.468984,48.75885,0.464975,97.61355,0.7353297,-0.7954519,22,11445,0.580522
391101,3.469488,48.76459,0.469826,97.61355,0.7435893,-0.8022695,22,11480,0.582298
391136,3.470082,48.76744,0.474677,97.61355,0.8222753,-0.7233388,22,11515,0.584073
391171,3.471128,48.76521,0.479528,97.61355,0.7680702,-0.7777124,22,11550,0.585848
391206,3.471677,48.76659,0.484379,97.61355,0.7981829,-0.7777124,22,11585,0.587624
391241.4,3.472782,48.76064,0.489229,97.61355,0.7583072,-0.8101647,22,11620,0.589399
391276,3.473132,48.752,0.49408,97.61355,0.7752139,-0.7932079,22,11655,0.591174
391311,3.474178,48.75299,0.498931,97.61355,0.827908,-0.8007608,22,11690,0.59295
391346.4,3.47488,48.76765,0.503781,97.61355,0.8151323,-0.7758139,22,11725,0.594725
391381,3.475814,48.76303,0.508632,97.61355,0.8618042,-0.7754653,22,11760,0.5965
391416,3.476545,48.74635,0.513483,97.61355,0.7635142,-0.8427004,22,11795,0.598275
391451.4,3.477285,48.75787,0.518334,97.61355,0.7303498,-0.8533123,22,11830,0.600051
391486,3.477947,48.76642,0.523184,97.61355,0.8588285,-0.7621823,22,11865,0.601826
391521,3.478819,48.7468,0.528035,97.61355,0.8818058,-0.7240265,22,11900,0.603601
391556,3.479834,48.7617,0.532886,97.61355,0.8184559,-0.8328999,22,11935,0.605377
391591,3.48073,48.75815,0.537737,97.61355,0.8218488,-0.8143929,22,11970,0.607152
391626.4,3.481538,48.77139,0.542587,97.61355,0.8889381,-0.7621823,22,12005,0.608927
391661,3.482786,48.76561,0.547439,97.61355,0.7831284,-0.8834496,22,12040,0.610703
391696,3.483413,48.76126,0.552289,97.61355,0.8501446,-0.8011032,22,12075,0.612478
391731,3.484179,48.76361,0.55714,97.61355,0.9626969,-0.6806173,22,12110,0.614253
391766.4,3.485192,48.75926,0.56199,97.61355,0.8613777,-0.8200442,22,12145,0.616028
391801,3.486184,48.75005,0.566841,97.61355,0.9386531,-0.7651615,22,12180,0.617804
391836,3.486932,48.76495,0.571691,97.61355,0.9197785,-0.8218603,22,12215,0.619579
391871,3.487831,48.75014,0.576542,97.61355,0.9563647,-0.7549402,22,12250,0.621354
391906,3.489028,48.76709,0.581393,97.61355,0.904725,-0.7916517,22,12285,0.62313
391941.4,3.489712,48.76357,0.586243,97.61355,0.877592,-0.7811164,22,12320,0.624905
391976,3.491028,48.75845,0.591094,97.61355,0.9269103,-0.7693925,22,12355,0.62668
392011,3.492005,48.7706,0.595945,97.61355,0.8681724,-0.8283294,22,12390,0.628455
392046.4,3.492882,48.7569,0.600795,97.61355,0.9393038,-0.7418507,22,12425,0.630231
392081,3.493866,48.75562,0.605646,97.61355,1.042496,-0.6458423,22,12460,0.632006
392116,3.495188,48.77299,0.610497,97.61355,0.9445939,-0.7818548,22,12495,0.633781
392151.4,3.496449,48.75494,0.615348,97.61355,0.904725,-0.7916517,22,12530,0.635557
392186,3.497371,48.77376,0.6202,97.61355,1.030419,-0.7561382,22,12565,0.637332
392221,3.498588,48.7428,0.62505,97.61355,0.8734603,-0.8154737,22,12600,0.639107
392256,3.499493,48.75197,0.629901,97.61355,0.9464889,-0.7602774,22,12635,0.640883
392291,3.500635,48.75192,0.634752,97.61355,0.8783596,-0.8407669,22,12670,0.642658
392326,3.501774,48.74863,0.639603,97.61355,0.9175423,-0.8316574,22,12705,0.644433
392361,3.502807,48.76224,0.644453,97.61355,0.920208,-0.8818521,22,12740,0.646208
392396,3.504243,48.75253,0.649304,97.61355,0.9405481,-0.8312296,22,12775,0.647984
392431,3.50544,48.75508,0.654155,97.61355,0.9378856,-0.8036926,22,12810,0.649759
392466,3.506724,48.75636,0.659005,97.61355,0.9220178,-0.8422725,22,12845,0.651534
392501,3.508264,48.7641,0.663856,97.61355,0.9469121,-0.8248397,22,12880,0.65331
392536,3.509251,48.7634,0.668707,97.61355,0.9250657,-0.876977,22,12915,0.655085
392571,3.511002,48.75725,0.673557,97.61355,1.068467,-0.7255002,22,12950,0.65686
392606.4,3.512247,48.76006,0.678408,97.61355,0.902097,-0.8622602,22,12985,0.658636
392641,3.513428,48.76695,0.683258,97.61355,0.8926464,-0.8641937,22,13020,0.660411
392676,3.51515,48.76486,0.688109,97.61355,1.011241,-0.7451754,22,13055,0.662186
392711.4,3.51663,48.75966,0.69296,97.61355,1.0106,-0.7382662,22,13090,0.663961
392746,3.517968,48.75014,0.69781,97.61355,1.02302,-0.7409062,22,13125,0.665737
392781,3.519637,48.76579,0.702661,97.61355,1.034242,-0.8051664,22,13160,0.667512
392816,3.521368,48.76833,0.707512,97.61355,1.034972,-0.7968782,22,13195,0.669287
392851,3.523009,48.75481,0.712363,97.61355,0.9645917,-0.8977325,22,13230,0.671063
392886,3.524958,48.76833,0.717214,97.61355,0.9209408,-0.8886701,22,13265,0.672838
392921,3.526741,48.75116,0.722065,97.61355,1.025221,-0.8444278,22,13300,0.674613
392956,3.528513,48.76147,0.726916,97.61355,1.008273,-0.8010176,22,13335,0.676389
392991.4,3.530231,48.76224,0.731766,97.61355,0.9691837,-0.8780136,22,13370,0.678164
393026,3.532623,48.76495,0.736618,97.61355,0.9628232,-0.846637,22,13405,0.679939
393061,3.534549,48.76073,0.741469,97.61355,0.9344904,-0.890179,22,13440,0.681714
393096.4,3.536869,48.76152,0.74632,97.61355,1.119327,-0.7877247,22,13475,0.68349
393131,3.539096,48.75401,0.751171,97.61355,1.06327,-0.7892238,22,13510,0.685265
393166,3.541449,48.76041,0.756022,97.61355,1.138073,-0.7832748,22,13545,0.68704
393201,3.543994,48.75249,0.760873,97.61355,1.114471,-0.7472893,22,13580,0.688816
393236,3.546429,48.76704,0.765723,97.61355,1.009435,-0.8376131,22,13615,0.690591
393271,3.549201,48.74463,0.770574,97.61355,1.032411,-0.874977,22,13650,0.692366
393306,3.552057,48.76331,0.775425,97.61355,1.016963,-0.8451695,22,13685,0.694142
393341,3.555294,48.7686,0.780276,97.61355,1.126117,-0.7809072,22,13720,0.695917
393376,3.558156,48.75352,0.785127,97.61355,1.138935,-0.7755889,22,13755,0.697692
393411,3.561492,48.75552,0.789978,97.61355,1.097928,-0.7941049,22,13790,0.699467
393446,3.565045,48.76974,0.794828,97.61355,1.022256,-0.9002746,22,13825,0.701243
393481,3.568614,48.76598,0.799679,97.61355,1.135541,-0.8243136,22,13860,0.703018
393516,3.572589,48.74898,0.80453,97.61355,1.054584,-0.9206945,22,13895,0.704793
393551,3.576622,48.76779,0.809381,97.61355,1.09453,-0.8352739,22,13930,0.706569
393586,3.580857,48.74689,0.814232,97.61355,1.177274,-0.805065,22,13965,0.708344
393621,3.585632,48.74547,0.819083,97.61355,1.19721,-0.8681272,22,14000,0.710119
393656,3.590048,48.75859,0.823934,97.61355,1.060943,-0.9067568,22,14035,0.711894
393691,3.595276,48.75227,0.828785,97.61355,1.217109,-0.7348592,22,14070,0.71367
393726,3.600633,48.75636,0.833636,97.61355,1.164461,-0.8330394,22,14105,0.715445
393761,3.606551,48.75659,0.838487,97.61355,1.329584,-0.8182629,22,14140,0.71722
393796,3.613067,48.75618,0.843338,97.61355,1.238941,-0.8262217,22,14175,0.718996
393831,3.618901,48.75294,0.848188,97.61355,1.285631,-0.8246464,22,14210,0.720771
393866,3.626176,48.76335,0.853039,97.61355,1.324721,-0.7476221,22,14245,0.722546
393901,3.633604,48.74619,0.85789,97.61355,1.281509,-0.7759153,22,14280,0.724322
393936,3.64182,48.75111,0.86274,97.61355,1.381811,-0.7809072,22,14315,0.726097
393971.4,3.649825,48.76119,0.867588,97.61355,1.358194,-0.849943,22,14350,0.727872
394006,3.650219,46.80067,0.872312,97.61355,1.348747,-0.8329285,22,14385,0.729647
394041,3.649909,44.70293,0.876853,97.61355,1.343158,-0.7729487,22,14420,0.731423
394076.4,3.650007,42.92397,0.881218,97.61355,1.333708,-0.8745396,22,14455,0.733198
394111,3.649907,41.09938,0.885416,97.61355,1.353966,-0.8315338,22,14490,0.734973
394146,3.64985,39.57133,0.889447,97.61355,1.337428,-0.8330394,22,14525,0.736749
394181.4,3.649668,37.7188,0.893313,97.61355,1.452532,-0.7174153,22,14560,0.738524
394216,3.650021,36.31647,0.897018,97.61355,1.410059,-0.7827359,22,14595,0.740299
394251,3.650189,35.13214,0.900565,97.61355,1.330344,-0.8477083,22,14630,0.742075
394286,3.650394,33.81221,0.903958,97.61355,1.381918,-0.7203817,22,14665,0.74385
394321,3.650162,31.9798,0.907204,97.61355,1.341991,-0.7982474,22,14700,0.745625
394356.4,3.650005,30.41576,0.910303,97.61355,1.398009,-0.7570795,22,14735,0.7474
394391,3.650046,29.00081,0.91326,97.61355,1.379584,-0.7982474,22,14770,0.749176
394426,3.650212,27.84779,0.916082,97.61355,1.349075,-0.8213437,22,14805,0.750951
394461,3.650314,26.60782,0.918774,97.61355,1.379987,-0.7072198,22,14840,0.752726
394496,3.649969,25.02344,0.921338,97.61355,1.363782,-0.8065642,22,14875,0.754502
394531,3.649619,23.70288,0.923782,97.61355,1.361589,-0.8465325,22,14910,0.756277
394566,3.650052,22.83825,0.926113,97.61355,1.221673,-0.9417518,22,14945,0.758052
394601,3.649912,21.72075,0.92833,97.61355,1.118594,-0.6676301,22,14980,0.759828
394636,3.650303,20.95195,0.930442,97.61355,1.295051,-0.6943495,22,15015,0.761603
394671,3.650121,19.78509,0.932454,97.61355,1.20174,-0.7653961,22,15050,0.763378
394706,3.650043,18.85624,0.934371,97.61355,1.124921,-0.8047639,22,15085,0.765153
394741,3.649839,17.70476,0.936198,97.61355,1.056181,-0.8511157,22,15120,0.766929
394776,3.649868,17.13517,0.937937,97.61355,0.9977826,-0.8191028,22,15155,0.768704
394811,3.650396,16.53696,0.939596,97.61355,1.020462,-0.7661282,22,15190,0.770479
394846,3.649562,15.31329,0.941176,97.61355,1.018561,-0.7906977,22,15225,0.772255
394881,3.650064,14.73627,0.942683,97.61355,1.076929,-0.8662192,22,15260,0.77403
394916,3.650082,14.04662,0.944121,97.61355,0.8993207,-0.8801532,22,15295,0.775805
394951,3.649976,13.6947,0.945491,97.61355,0.9369508,-0.8046276,22,15330,0.777581
394986,3.650173,13.00297,0.946801,97.61355,0.8973907,-0.8367732,22,15365,0.779356
395021,3.650043,12.33571,0.948052,97.61355,0.8153567,-0.9115369,22,15400,0.781131
395056,3.649646,11.50347,0.949246,97.61355,0.8066277,-0.8221076,22,15435,0.782906
395091,3.650084,11.19483,0.950388,97.61355,0.8089972,-0.8650495,22,15470,0.784682
395126,3.65018,10.8632,0.95148,97.61355,0.7970139,-0.8015437,22,15505,0.786457
395161,3.650191,10.31434,0.952525,97.61355,0.7382462,-0.7547659,22,15540,0.788232
395196,3.650105,9.756617,0.953525,97.61355,0.734881,-0.7581412,22,15575,0.790008
395231,3.650087,9.368992,0.954483,97.61355,0.5920988,-0.8484754,22,15610,0.791783
395266,3.650184,9.358193,0.955401,97.61355,0.6350552,-0.7676337,22,15645,0.793558
395301.4,3.650427,8.985527,0.95628,97.61355,0.5416021,-0.9293196,22,15680,0.795334
395336,3.649852,8.24247,0.957125,97.61355,0.6011292,-0.8092076,22,15715,0.7971088
395371,3.65013,8.146489,0.957935,97.61355,0.5755675,-0.8574963,22,15750,0.798884
395406,3.649939,7.596088,0.958714,97.61355,0.5997416,-0.7275254,22,15785,0.800659
395441,3.65035,7.626344,0.959462,97.61355,0.5969981,-0.7982474,22,15820,0.802435
395476,3.650239,7.14208,0.960181,97.61355,0.5157177,-0.7891129,22,15855,0.80421
395511,3.650046,6.893438,0.960873,97.61355,0.4863478,-0.7732466,22,15890,0.805985
395546,3.649814,6.408888,0.961538,97.61355,0.4674444,-0.8148525,22,15925,0.807761
395581,3.649907,6.275996,0.962179,97.61355,0.3875284,-0.8345418,22,15960,0.809536
395616,3.64983,5.877021,0.962797,97.61355,0.3399844,-0.9124054,22,15995,0.811311
395651,3.649689,5.853967,0.963393,97.61355,0.3506169,-0.7960097,22,16030,0.813086
395686,3.650123,5.878443,0.963968,97.61355,0.3543202,-0.814957,22,16065,0.814862
395721,3.649776,5.443824,0.964522,97.61355,0.2604788,-0.8636834,22,16100,0.816637
719685,2.937974,48.76398,0.00277491,97.61355,16.64391,11.65262,45,16135,0.818412
719720,3.006037,48.74352,0.007623757,97.61355,15.54823,9.955248,45,16170,0.820188
719755,3.0554,48.74818,0.0124726,97.61355,13.88504,6.892388,45,16205,0.821963
719790,3.095734,48.77385,0.0173215,97.61355,12.01031,3.741299,45,16240,0.823738
719825,3.1299,48.76366,0.0221701,97.61355,10.10526,0.9136636,45,16275,0.825514
719860,3.159929,48.77438,0.0270193,97.61355,8.219419,-1.638592,45,16310,0.827289
719895,3.186319,48.75197,0.031868,97.61355,6.567172,-2.914912,45,16345,0.829064
719930,3.210586,48.76672,0.0367175,97.61355,5.995639,-3.163689,45,16380,0.830839
719965,3.232599,48.7598,0.0415665,97.61355,5.034047,-3.164389,45,16415,0.832615
720000,3.252003,48.75044,0.0464154,97.61355,4.837863,-2.735188,45,16450,0.83439
720034.972,3.269835,48.77843,0.051265,97.61355,4.600908,-2.445799,45,16485,0.836165
720070,3.283784,48.75699,0.056114,97.61355,4.241586,-2.174409,45,16520,0.837941
720105,3.29183,48.76277,0.0609633,97.61355,4.100825,-1.984152,45,16555,0.839716
720140,3.296047,48.7509,0.0658119,97.61355,3.912364,-1.781655,45,16590,0.841491
720175,3.299257,48.7504,0.070661,97.61355,3.662933,-1.648293,45,16625,0.843267
720210,3.302008,48.75615,0.0755098,97.61355,3.678464,-1.360539,45,16660,0.845042
720245,3.304605,48.77785,0.0803585,97.61355,3.60512,-1.23062,45,16695,0.846817
720280,3.30749,48.75334,0.0852071,97.61355,3.465135,-1.235981,45,16730,0.848592
720315,3.310344,48.75899,0.0900563,97.61355,3.353539,-1.091774,45,16765,0.850368
720350,3.313569,48.76143,0.0949054,97.61355,3.221472,-1.043738,45,16800,0.852143
720385,3.316734,48.76419,0.0997543,97.61355,3.156151,-0.973673,45,16835,0.853918
720420,3.320228,48.77487,0.104603,97.61355,3.093511,-1.07959,45,16870,0.855694
720454.972,3.323388,48.75975,0.109452,97.61355,2.948139,-0.9490806,45,16905,0.857469
720490,3.326773,48.7686,0.114302,97.61355,2.906881,-0.9229039,45,16940,0.859244
720525,3.330908,48.76628,0.11915,97.61355,2.796874,-0.9809164,45,16975,0.86102
720560,3.334693,48.76112,0.123999,97.61355,2.639636,-0.9731912,45,17010,0.862795
720595,3.338446,48.75729,0.128848,97.61355,2.575652,-1.022546,45,17045,0.86457
720630,3.342283,48.7605,0.133697,97.61355,2.544231,-0.8653665,45,17080,0.866345
720665,3.346344,48.75562,0.138546,97.61355,2.472598,-0.9148556,45,17115,0.868121
720700,3.350187,48.76143,0.143395,97.61355,2.386095,-0.9188814,45,17150,0.869896
720735,3.354279,48.76477,0.148245,97.61355,2.291142,-0.9616082,45,17185,0.871671
720770,3.358236,48.75169,0.153095,97.61355,2.253176,-0.9318491,45,17220,0.873447
720805,3.362167,48.75307,0.157944,97.61355,2.211324,-1.004188,45,17255,0.875222
720840,3.365822,48.75383,0.162792,97.61355,2.159956,-0.8595089,45,17290,0.876997
720875,3.369604,48.7661,0.167642,97.61355,1.976788,-0.9305179,45,17325,0.878773
720909.972,3.373555,48.75761,0.17249,97.61355,1.963995,-0.9207231,45,17360,0.880548
720945,3.377017,48.76077,0.17734,97.61355,1.913386,-0.941419,45,17395,0.882323
720979.972,3.380212,48.75058,0.182189,97.61355,1.773433,-0.9613229,45,17430,0.884098
721015,3.383824,48.75406,0.187037,97.61355,1.796946,-0.982996,45,17465,0.8858737
721050,3.386961,48.76793,0.191886,97.61355,1.623341,-0.983817,45,17500,0.887649
721084.972,3.390294,48.75423,0.196736,97.61355,1.738033,-0.8911679,45,17535,0.889424
721120,3.393606,48.76268,0.201586,97.61355,1.631054,-0.9156355,45,17570,0.8912
721154.973,3.396504,48.75632,0.206434,97.61355,1.516927,-0.9548087,45,17605,0.892975
721189.972,3.399331,48.76205,0.211283,97.61355,1.476762,-0.9649588,45,17640,0.89475
721225,3.402205,48.75685,0.216132,97.61355,1.563008,-0.8480729,45,17675,0.896525
721260,3.404566,48.75352,0.220981,97.61355,1.385806,-1.033695,45,17710,0.898301
721295,3.406888,48.7513,0.22583,97.61355,1.459192,-0.9190176,45,17745,0.900076
721330,3.408998,48.75,0.230679,97.61355,1.381429,-0.8114991,45,17780,0.901851
721365,3.410882,48.75174,0.235527,97.61355,1.311174,-0.9198355,45,17815,0.903627
721400,3.412656,48.76019,0.2403768,97.61355,1.220151,-0.9130647,45,17850,0.905402
721435,3.414405,48.77139,0.245226,97.61355,1.215997,-0.8945754,45,17885,0.907177
721469.973,3.415882,48.76526,0.250075,97.61355,1.238777,-0.8565961,45,17920,0.908953
721505,3.417515,48.7572,0.254924,97.61355,1.215612,-0.8571982,45,17955,0.910728
721540,3.418613,48.75752,0.259774,97.61355,1.149513,-0.9009117,45,17990,0.912503
721575,3.419756,48.76926,0.264623,97.61355,1.089514,-0.8327573,45,18025,0.914278
721610,3.420987,48.75806,0.269472,97.61355,1.130941,-0.896902,45,18060,0.916054
721644.972,3.421884,48.75815,0.27432,97.61355,1.101189,-0.8436924,45,18095,0.917829
721680,3.423336,48.75418,0.27917,97.61355,1.076468,-0.8383009,45,18130,0.919604
721715,3.424122,48.76073,0.284018,97.61355,1.037255,-0.9758571,45,18165,0.92138
721750,3.425076,48.75339,0.288868,97.61355,1.014904,-0.877443,45,18200,0.923155
721785,3.425781,48.76019,0.293717,97.61355,0.9557109,-0.9293038,45,18235,0.92493
721820,3.426771,48.74995,0.298566,97.61355,0.9559383,-0.8988641,45,18270,0.926706
721855,3.427557,48.76695,0.303416,97.61355,0.9808812,-0.8964868,45,18305,0.928481
721890,3.428411,48.75565,0.308265,97.61355,0.913152,-0.8587228,45,18340,0.930256
721925,3.429277,48.75868,0.313113,97.61355,0.9379424,-0.8716044,45,18375,0.932031
721960,3.430208,48.7617,0.317962,97.61355,0.9434822,-0.9038122,45,18410,0.933807
721995,3.431151,48.75098,0.322811,97.61355,0.9613262,-0.82548,45,18445,0.935582
722030,3.431737,48.75739,0.32766,97.61355,0.8775319,-0.9322327,45,18480,0.937357
722065,3.432483,48.76054,0.332509,97.61355,0.893594,-0.7877184,45,18515,0.939133
722100,3.433296,48.75565,0.337358,97.61355,0.9568037,-0.8451251,45,18550,0.940908
722135,3.434148,48.76614,0.342207,97.61355,0.8405665,-0.8862422,45,18585,0.942683
722170,3.43487,48.7572,0.347056,97.61355,0.9074982,-0.8807237,45,18620,0.944459
722205,3.435797,48.73151,0.351905,97.61355,0.861899,-0.8421774,45,18655,0.946234
722239.972,3.436699,48.74774,0.356754,97.61355,0.8444774,-0.8672112,45,18690,0.948009
722275,3.437455,48.77602,0.361603,97.61355,0.958389,-0.7982189,45,18725,0.949784
722310,3.43813,48.75583,0.366452,97.61355,0.821893,-0.9200827,45,18760,0.95156
722345,3.438857,48.752,0.371301,97.61355,0.8504574,-0.7781371,45,18795,0.953335
722380,3.439476,48.76454,0.37615,97.61355,0.991091,-0.6521267,45,18830,0.95511
722415,3.440266,48.76428,0.380999,97.61355,0.9439117,-0.8051981,45,18865,0.956886
722450,3.440913,48.75841,0.385847,97.61355,0.9270745,-0.7541257,45,18900,0.958661
722484.972,3.4416,48.76512,0.390697,97.61355,0.8624802,-0.8491505,45,18935,0.960436
722520,3.442574,48.76054,0.395546,97.61355,0.8371042,-0.81419,45,18970,0.962212
722555,3.443521,48.75569,0.400395,97.61355,0.8262053,-0.7722578,45,19005,0.963987
722590,3.443733,48.75699,0.405244,97.61355,0.9184488,-0.6495027,45,19040,0.965762
722625,3.444878,48.75508,0.410094,97.61355,0.9794316,-0.6487199,45,19075,0.967537
722660,3.445957,48.75446,0.414942,97.61355,0.9869572,-0.6864804,45,19110,0.969313
722695,3.446348,48.75516,0.419791,97.61355,0.7821553,-0.9448456,45,19145,0.971088
722729.973,3.447183,48.77051,0.42464,97.61355,0.7256607,-0.8731227,45,19180,0.972863
722765,3.447792,48.76268,0.429489,97.61355,0.8316706,-0.7441167,45,19215,0.9746386
722799.972,3.448804,48.75334,0.434338,97.61355,0.8900816,-0.7081737,45,19250,0.976414
722835,3.449439,48.76828,0.439187,97.61355,0.8431853,-0.7778804,45,19285,0.978189
722870,3.450219,48.7589,0.444036,97.61355,0.9523001,-0.5928815,45,19320,0.979964
722905,3.451495,48.76424,0.448885,97.61355,0.8780279,-0.7655767,45,19355,0.98174
722940,3.452136,48.76962,0.453734,97.61355,0.8659897,-0.687035,45,19390,0.983515
722975,3.452861,48.76166,0.458583,97.61355,0.9497576,-0.6860526,45,19425,0.98529
723010,3.453727,48.77037,0.463432,97.61355,0.9549403,-0.6732997,45,19460,0.987066
723045,3.454421,48.75797,0.468281,97.61355,0.8100144,-0.6456522,45,19495,0.988841
723080,3.455169,48.75792,0.47313,97.61355,0.9028867,-0.710427,45,19530,0.990616
723115,3.4559,48.76321,0.477978,97.61355,0.8332059,-0.7350271,45,19565,0.992392
723150,3.456851,48.76921,0.482828,97.61355,0.8924474,-0.6227304,45,19600,0.994167
723184.972,3.4578,48.7457,0.487676,97.61355,0.8309472,-0.8052647,45,19635,0.995942
723220,3.458206,48.76556,0.492526,97.61355,0.8516009,-0.769437,45,19670,0.997717
723255,3.459311,48.75801,0.497375,97.61355,0.8591254,-0.7316772,45,19705,0.999493
723265,3.459422,48.76112,0.4987606,97.61355,0.9510558,-0.6696457,45,19715,1